{
  "category": {
    "coding": [
      {
        "code": "SolicitedAttachmentRequest",
        "system": "http://acme.org/messagetypes"
      }
    ]
  },
  "contained": [
    {
      "id": "provider",
      "identifier": [
        {
          "system": "http://www.jurisdiction.com/provideroffices",
          "value": "3456"
        }
      ],
      "resourceType": "Organization"
    },
    {
      "id": "payor",
      "identifier": [
        {
          "system": "http://www.jurisdiction.com/insurer",
          "value": "123456"
        }
      ],
      "resourceType": "Organization"
    },
    {
      "id": "requester",
      "identifier": [
        {
          "value": "6789"
        }
      ],
      "resourceType": "Practitioner"
    }
  ],
  "encounter": {
    "reference": "Encounter/example"
  },
  "extension": [
    {
      "url": "https://www.hl7.org/fhir/STU3/communicationrequest-definitions.html#CommunicationRequest.groupIdentifier",
      "valueIdentifier": {
        "value": "12345"
      }
    },
    {
      "url": "https://www.hl7.org/fhir/STU3/communicationrequest-definitions.html#CommunicationRequest.status",
      "valueCode": "active"
    },
    {
      "url": "https://www.hl7.org/fhir/STU3/communicationrequest-definitions.html#CommunicationRequest.priority",
      "valueCode": "routine"
    }
  ],
  "id": "fm-solicit",
  "identifier": [
    {
      "system": "http://www.jurisdiction.com/insurer/123456",
      "value": "ABC123"
    }
  ],
  "medium": [
    {
      "coding": [
        {
          "code": "WRITTEN",
          "display": "written",
          "system": "http://hl7.org/fhir/v3/ParticipationMode"
        }
      ],
      "text": "written"
    }
  ],
  "payload": [
    {
      "contentString": "Please provide the accident report and any associated pictures to support your Claim# DEF5647."
    }
  ],
  "recipient": [
    {
      "reference": "#provider"
    }
  ],
  "requestedOn": "2016-06-10T11:01:10-08:00",
  "requester": {
    "reference": "#requester"
  },
  "resourceType": "CommunicationRequest",
  "scheduledDateTime": "2016-06-10T11:01:10-08:00",
  "sender": {
    "reference": "#payor"
  },
  "text": {
    "div": "\u003cdiv xmlns=\"http://www.w3.org/1999/xhtml\"\u003eRequest for Accident Report\u003c/div\u003e",
    "status": "generated"
  }
}
