{
  "authenticator": {
    "reference": "Organization/f001"
  },
  "author": [
    {
      "reference": "Practitioner/xcda1"
    },
    {
      "reference": "#a2"
    }
  ],
  "class": {
    "coding": [
      {
        "code": "History and Physical",
        "display": "History and Physical",
        "system": "http://ihe.net/xds/connectathon/classCodes"
      }
    ]
  },
  "contained": [
    {
      "id": "a2",
      "name": [
        {
          "family": "Smitty",
          "given": [
            "Gerald"
          ]
        }
      ],
      "resourceType": "Practitioner"
    }
  ],
  "content": [
    {
      "attachment": {
        "contentType": "application/hl7-v3+xml",
        "hash": "2jmj7l5rSw0yVb/vlWAYkK/YBwk=",
        "language": "en-US",
        "size": 3654,
        "url": "http://example.org/xds/mhd/Binary/07a6483f-732b-461e-86b6-edb665c45510"
      },
      "format": {
        "code": "urn:ihe:pcc:handp:2008",
        "display": "History and Physical Specification",
        "system": "urn:oid:1.3.6.1.4.1.19376.1.2.3"
      }
    }
  ],
  "context": {
    "encounter": {
      "reference": "Encounter/xcda"
    },
    "event": [
      {
        "coding": [
          {
            "code": "T-D8200",
            "display": "Arm",
            "system": "http://ihe.net/xds/connectathon/eventCodes"
          }
        ]
      }
    ],
    "facilityType": {
      "coding": [
        {
          "code": "Outpatient",
          "display": "Outpatient",
          "system": "http://www.ihe.net/xds/connectathon/healthcareFacilityTypeCodes"
        }
      ]
    },
    "period": {
      "end": "2004-12-23T08:01:00+11:00",
      "start": "2004-12-23T08:00:00+11:00"
    },
    "practiceSetting": {
      "coding": [
        {
          "code": "General Medicine",
          "display": "General Medicine",
          "system": "http://www.ihe.net/xds/connectathon/practiceSettingCodes"
        }
      ]
    },
    "related": [
      {
        "identifier": {
          "system": "urn:ietf:rfc:3986",
          "value": "urn:oid:1.3.6.1.4.1.21367.2005.3.7.2345"
        },
        "ref": {
          "reference": "Patient/xcda"
        }
      }
    ],
    "sourcePatientInfo": {
      "reference": "Patient/xcda"
    }
  },
  "created": "2005-12-24T09:35:00+11:00",
  "custodian": {
    "reference": "Organization/f001"
  },
  "description": "Physical",
  "docStatus": "preliminary",
  "id": "example",
  "identifier": [
    {
      "system": "urn:ietf:rfc:3986",
      "value": "urn:oid:1.3.6.1.4.1.21367.2005.3.7.1234"
    }
  ],
  "indexed": "2005-12-24T09:43:41+11:00",
  "masterIdentifier": {
    "system": "urn:ietf:rfc:3986",
    "value": "urn:oid:1.3.6.1.4.1.21367.2005.3.7"
  },
  "relatesTo": [
    {
      "code": "appends",
      "target": {
        "reference": "DocumentReference/example"
      }
    }
  ],
  "resourceType": "DocumentReference",
  "securityLabel": [
    {
      "coding": [
        {
          "code": "V",
          "display": "very restricted",
          "system": "http://hl7.org/fhir/v3/Confidentiality"
        }
      ]
    }
  ],
  "status": "current",
  "subject": {
    "reference": "Patient/xcda"
  },
  "text": {
    "div": "\u003cdiv xmlns=\"http://www.w3.org/1999/xhtml\"\u003e\u003cp\u003e\u003cb\u003eGenerated Narrative with Details\u003c/b\u003e\u003c/p\u003e\u003cp\u003e\u003cb\u003eid\u003c/b\u003e: example\u003c/p\u003e\u003cp\u003e\u003cb\u003econtained\u003c/b\u003e: \u003c/p\u003e\u003cp\u003e\u003cb\u003emasterIdentifier\u003c/b\u003e: urn:oid:1.3.6.1.4.1.21367.2005.3.7\u003c/p\u003e\u003cp\u003e\u003cb\u003eidentifier\u003c/b\u003e: urn:oid:1.3.6.1.4.1.21367.2005.3.7.1234\u003c/p\u003e\u003cp\u003e\u003cb\u003estatus\u003c/b\u003e: current\u003c/p\u003e\u003cp\u003e\u003cb\u003edocStatus\u003c/b\u003e: preliminary\u003c/p\u003e\u003cp\u003e\u003cb\u003etype\u003c/b\u003e: Outpatient Note \u003cspan\u003e(Details : {LOINC code '34108-1' = 'Outpatient Note', given as 'Outpatient Note'})\u003c/span\u003e\u003c/p\u003e\u003cp\u003e\u003cb\u003eclass\u003c/b\u003e: History and Physical \u003cspan\u003e(Details : {http://ihe.net/xds/connectathon/classCodes code 'History and Physical' = 'History and Physical', given as 'History and Physical'})\u003c/span\u003e\u003c/p\u003e\u003cp\u003e\u003cb\u003esubject\u003c/b\u003e: \u003ca\u003ePatient/xcda\u003c/a\u003e\u003c/p\u003e\u003cp\u003e\u003cb\u003ecreated\u003c/b\u003e: 24/12/2005 9:35:00 AM\u003c/p\u003e\u003cp\u003e\u003cb\u003eindexed\u003c/b\u003e: 24/12/2005 9:43:41 AM\u003c/p\u003e\u003cp\u003e\u003cb\u003eauthor\u003c/b\u003e: \u003ca\u003ePractitioner/xcda1\u003c/a\u003e, id: a2; Gerald Smitty \u003c/p\u003e\u003cp\u003e\u003cb\u003eauthenticator\u003c/b\u003e: \u003ca\u003eOrganization/f001\u003c/a\u003e\u003c/p\u003e\u003cp\u003e\u003cb\u003ecustodian\u003c/b\u003e: \u003ca\u003eOrganization/f001\u003c/a\u003e\u003c/p\u003e\u003ch3\u003eRelatesTos\u003c/h3\u003e\u003ctable\u003e\u003ctr\u003e\u003ctd\u003e-\u003c/td\u003e\u003ctd\u003e\u003cb\u003eCode\u003c/b\u003e\u003c/td\u003e\u003ctd\u003e\u003cb\u003eTarget\u003c/b\u003e\u003c/td\u003e\u003c/tr\u003e\u003ctr\u003e\u003ctd\u003e*\u003c/td\u003e\u003ctd\u003eappends\u003c/td\u003e\u003ctd\u003e\u003ca\u003eDocumentReference/example\u003c/a\u003e\u003c/td\u003e\u003c/tr\u003e\u003c/table\u003e\u003cp\u003e\u003cb\u003edescription\u003c/b\u003e: Physical\u003c/p\u003e\u003cp\u003e\u003cb\u003esecurityLabel\u003c/b\u003e: very restricted \u003cspan\u003e(Details : {http://hl7.org/fhir/v3/Confidentiality code 'V' = 'very restricted', given as 'very restricted'})\u003c/span\u003e\u003c/p\u003e\u003ch3\u003eContents\u003c/h3\u003e\u003ctable\u003e\u003ctr\u003e\u003ctd\u003e-\u003c/td\u003e\u003ctd\u003e\u003cb\u003eAttachment\u003c/b\u003e\u003c/td\u003e\u003ctd\u003e\u003cb\u003eFormat\u003c/b\u003e\u003c/td\u003e\u003c/tr\u003e\u003ctr\u003e\u003ctd\u003e*\u003c/td\u003e\u003ctd/\u003e\u003ctd\u003eHistory and Physical Specification (Details: urn:oid:1.3.6.1.4.1.19376.1.2.3 code urn:ihe:pcc:handp:2008 = 'urn:ihe:pcc:handp:2008', stated as 'History and Physical Specification')\u003c/td\u003e\u003c/tr\u003e\u003c/table\u003e\u003cblockquote\u003e\u003cp\u003e\u003cb\u003econtext\u003c/b\u003e\u003c/p\u003e\u003cp\u003e\u003cb\u003eencounter\u003c/b\u003e: \u003ca\u003eEncounter/xcda\u003c/a\u003e\u003c/p\u003e\u003cp\u003e\u003cb\u003eevent\u003c/b\u003e: Arm \u003cspan\u003e(Details : {http://ihe.net/xds/connectathon/eventCodes code 'T-D8200' = 'T-D8200', given as 'Arm'})\u003c/span\u003e\u003c/p\u003e\u003cp\u003e\u003cb\u003eperiod\u003c/b\u003e: 23/12/2004 8:00:00 AM --\u0026gt; 23/12/2004 8:01:00 AM\u003c/p\u003e\u003cp\u003e\u003cb\u003efacilityType\u003c/b\u003e: Outpatient \u003cspan\u003e(Details : {http://www.ihe.net/xds/connectathon/healthcareFacilityTypeCodes code 'Outpatient' = 'Outpatient', given as 'Outpatient'})\u003c/span\u003e\u003c/p\u003e\u003cp\u003e\u003cb\u003epracticeSetting\u003c/b\u003e: General Medicine \u003cspan\u003e(Details : {http://www.ihe.net/xds/connectathon/practiceSettingCodes code 'General Medicine' = 'General Medicine', given as 'General Medicine'})\u003c/span\u003e\u003c/p\u003e\u003cp\u003e\u003cb\u003esourcePatientInfo\u003c/b\u003e: \u003ca\u003ePatient/xcda\u003c/a\u003e\u003c/p\u003e\u003ch3\u003eRelateds\u003c/h3\u003e\u003ctable\u003e\u003ctr\u003e\u003ctd\u003e-\u003c/td\u003e\u003ctd\u003e\u003cb\u003eIdentifier\u003c/b\u003e\u003c/td\u003e\u003ctd\u003e\u003cb\u003eRef\u003c/b\u003e\u003c/td\u003e\u003c/tr\u003e\u003ctr\u003e\u003ctd\u003e*\u003c/td\u003e\u003ctd\u003eurn:oid:1.3.6.1.4.1.21367.2005.3.7.2345\u003c/td\u003e\u003ctd\u003e\u003ca\u003ePatient/xcda\u003c/a\u003e\u003c/td\u003e\u003c/tr\u003e\u003c/table\u003e\u003c/blockquote\u003e\u003c/div\u003e",
    "status": "generated"
  },
  "type": {
    "coding": [
      {
        "code": "34108-1",
        "display": "Outpatient Note",
        "system": "http://loinc.org"
      }
    ]
  }
}
