{
  "category": [
    {
      "coding": [
        {
          "code": "encounter",
          "system": "http://hl7.org/fhir/care-team-category"
        }
      ]
    }
  ],
  "contained": [
    {
      "id": "pr1",
      "name": [
        {
          "family": "Dietician",
          "given": [
            "Dorothy"
          ]
        }
      ],
      "resourceType": "Practitioner"
    }
  ],
  "encounter": {
    "reference": "Encounter/example"
  },
  "id": "example",
  "identifier": [
    {
      "value": "12345"
    }
  ],
  "managingOrganization": [
    {
      "reference": "Organization/f001"
    }
  ],
  "name": "Peter James Charlmers Care Plan for Inpatient Encounter",
  "participant": [
    {
      "member": {
        "display": "Peter James Chalmers",
        "reference": "Patient/example"
      },
      "role": [
        {
          "text": "responsiblePerson"
        }
      ]
    },
    {
      "member": {
        "display": "Dorothy Dietition",
        "reference": "#pr1"
      },
      "onBehalfOf": {
        "reference": "Organization/f001"
      },
      "period": {
        "end": "2013-01-01"
      },
      "role": [
        {
          "text": "adviser"
        }
      ]
    }
  ],
  "period": {
    "end": "2013-01-01"
  },
  "resourceType": "CareTeam",
  "status": "active",
  "subject": {
    "display": "Peter James Chalmers",
    "reference": "Patient/example"
  },
  "text": {
    "div": "<div xmlns=\"http://www.w3.org/1999/xhtml\">Care Team</div>",
    "status": "generated"
  }
}
