{
  "authenticator": {
    "reference": "Organization/f001"
  },
  "author": [
    {
      "reference": "Practitioner/xcda1"
    },
    {
      "reference": "#a2"
    }
  ],
  "category": [
    {
      "coding": [
        {
          "code": "History and Physical",
          "display": "History and Physical",
          "system": "http://ihe.net/xds/connectathon/classCodes"
        }
      ]
    }
  ],
  "contained": [
    {
      "id": "a2",
      "name": [
        {
          "family": "Smitty",
          "given": [
            "Gerald"
          ]
        }
      ],
      "resourceType": "Practitioner"
    }
  ],
  "content": [
    {
      "attachment": {
        "contentType": "application/hl7-v3+xml",
        "creation": "2005-12-24T09:35:00+11:00",
        "hash": "2jmj7l5rSw0yVb/vlWAYkK/YBwk=",
        "language": "en-US",
        "size": 3654,
        "title": "Physical",
        "url": "http://example.org/xds/mhd/Binary/07a6483f-732b-461e-86b6-edb665c45510"
      },
      "format": {
        "code": "urn:ihe:pcc:handp:2008",
        "display": "History and Physical Specification",
        "system": "urn:oid:1.3.6.1.4.1.19376.1.2.3"
      }
    }
  ],
  "context": {
    "encounter": [
      {
        "reference": "Encounter/xcda"
      }
    ],
    "event": [
      {
        "coding": [
          {
            "code": "T-D8200",
            "display": "Arm",
            "system": "http://ihe.net/xds/connectathon/eventCodes"
          }
        ]
      }
    ],
    "facilityType": {
      "coding": [
        {
          "code": "Outpatient",
          "display": "Outpatient",
          "system": "http://www.ihe.net/xds/connectathon/healthcareFacilityTypeCodes"
        }
      ]
    },
    "period": {
      "end": "2004-12-23T08:01:00+11:00",
      "start": "2004-12-23T08:00:00+11:00"
    },
    "practiceSetting": {
      "coding": [
        {
          "code": "General Medicine",
          "display": "General Medicine",
          "system": "http://www.ihe.net/xds/connectathon/practiceSettingCodes"
        }
      ]
    },
    "related": [
      {
        "identifier": {
          "system": "urn:ietf:rfc:3986",
          "value": "urn:oid:1.3.6.1.4.1.21367.2005.3.7.2345"
        },
        "reference": "Patient/xcda"
      }
    ],
    "sourcePatientInfo": {
      "reference": "Patient/xcda"
    }
  },
  "custodian": {
    "reference": "Organization/f001"
  },
  "date": "2005-12-24T09:43:41+11:00",
  "description": "Physical",
  "docStatus": "preliminary",
  "id": "example",
  "identifier": [
    {
      "system": "urn:ietf:rfc:3986",
      "value": "urn:oid:1.3.6.1.4.1.21367.2005.3.7.1234"
    }
  ],
  "masterIdentifier": {
    "system": "urn:ietf:rfc:3986",
    "value": "urn:oid:1.3.6.1.4.1.21367.2005.3.7"
  },
  "relatesTo": [
    {
      "code": "appends",
      "target": {
        "reference": "DocumentReference/example"
      }
    }
  ],
  "resourceType": "DocumentReference",
  "securityLabel": [
    {
      "coding": [
        {
          "code": "V",
          "display": "very restricted",
          "system": "http://terminology.hl7.org/CodeSystem/v3-Confidentiality"
        }
      ]
    }
  ],
  "status": "current",
  "subject": {
    "reference": "Patient/xcda"
  },
  "text": {
    "div": "<div xmlns=\"http://www.w3.org/1999/xhtml\"><p><b>Generated Narrative with Details</b></p><p><b>id</b>: example</p><p><b>contained</b>: </p><p><b>masterIdentifier</b>: urn:oid:1.3.6.1.4.1.21367.2005.3.7</p><p><b>identifier</b>: urn:oid:1.3.6.1.4.1.21367.2005.3.7.1234</p><p><b>status</b>: current</p><p><b>docStatus</b>: preliminary</p><p><b>type</b>: Outpatient Note <span>(Details : {LOINC code '34108-1' = 'Outpatient Note', given as 'Outpatient Note'})</span></p><p><b>category</b>: History and Physical <span>(Details : {http://ihe.net/xds/connectathon/classCodes code 'History and Physical' = 'History and Physical', given as 'History and Physical'})</span></p><p><b>subject</b>: <a>Patient/xcda</a></p><p><b>date</b>: 24/12/2005 9:43:41 AM</p><p><b>author</b>: </p><ul><li><a>Practitioner/xcda1</a></li><li>id: a2; Gerald Smitty </li></ul><p><b>authenticator</b>: <a>Organization/f001</a></p><p><b>custodian</b>: <a>Organization/f001</a></p><h3>RelatesTos</h3><table><tr><td>-</td><td><b>Code</b></td><td><b>Target</b></td></tr><tr><td>*</td><td>appends</td><td><a>DocumentReference/example</a></td></tr></table><p><b>description</b>: Physical</p><p><b>securityLabel</b>: very restricted <span>(Details : {http://terminology.hl7.org/CodeSystem/v3-Confidentiality code 'V' = 'very restricted', given as 'very restricted'})</span></p><h3>Contents</h3><table><tr><td>-</td><td><b>Attachment</b></td><td><b>Format</b></td></tr><tr><td>*</td><td/><td>History and Physical Specification (Details: urn:oid:1.3.6.1.4.1.19376.1.2.3 code urn:ihe:pcc:handp:2008 = 'urn:ihe:pcc:handp:2008', stated as 'History and Physical Specification')</td></tr></table><h3>Contexts</h3><table><tr><td>-</td><td><b>Encounter</b></td><td><b>Event</b></td><td><b>Period</b></td><td><b>FacilityType</b></td><td><b>PracticeSetting</b></td><td><b>SourcePatientInfo</b></td><td><b>Related</b></td></tr><tr><td>*</td><td><a>Encounter/xcda</a></td><td>Arm <span>(Details : {http://ihe.net/xds/connectathon/eventCodes code 'T-D8200' = 'T-D8200', given as 'Arm'})</span></td><td>23/12/2004 8:00:00 AM --&gt; 23/12/2004 8:01:00 AM</td><td>Outpatient <span>(Details : {http://www.ihe.net/xds/connectathon/healthcareFacilityTypeCodes code 'Outpatient' = 'Outpatient', given as 'Outpatient'})</span></td><td>General Medicine <span>(Details : {http://www.ihe.net/xds/connectathon/practiceSettingCodes code 'General Medicine' = 'General Medicine', given as 'General Medicine'})</span></td><td><a>Patient/xcda</a></td><td><a>Patient/xcda</a></td></tr></table></div>",
    "status": "generated"
  },
  "type": {
    "coding": [
      {
        "code": "34108-1",
        "display": "Outpatient Note",
        "system": "http://loinc.org"
      }
    ]
  }
}
